Folder: PlotingXRD/Files_organized_for_plots/Centroid_old_vs_washed

Note: README.md
# PlotingXRD
reads xrd cvs files and plots the data

File: XRD_130_Centroid16Mar22_Act16Nov22_B1_0714M_NaOH_LS0173_background_removed.xy
5.00773 831.9
5.217818 969.5
5.427907 846.8
5.637994 786.1
5.848083 773.6
6.05817 654.6
6.268259 637.0
6.478346 562.1
6.688435 673.2
6.898522 698.9
7.108611 677.2
7.318698 685.4
7.528787 557.8
7.738874 638.0
7.948963 629.0
8.159051 777.9
8.369139 834.9
8.579226 1130.5
8.789314 1223.1
8.999402 991.5
9.209491 946.2
9.419579 1048.1
9.629666 1129.2
9.839754 1165.6
10.04984 1175.0
10.25993 1157.2
10.47002 1140.4
10.68011 1211.1
10.89019 968.0
11.10028 1111.2
11.31037 1573.2
11.52046 1181.6
11.73055 1050.5
11.94063 1078.1
12.15072 1061.8
12.36081 1035.6
12.5709 1069.1
12.78099 989.0
12.99107 921.3
13.20116 667.2
13.41125 656.6
13.62134 665.9
13.83143 562.8
14.04151 536.6
14.2516 621.3
14.46169 538.1
14.67178 563.0
14.88187 548.3
15.09195 688.3
15.30204 761.4
15.51213 709.1
15.72222 578.9
15.93231 581.0
16.1424 702.7
16.35248 609.1
16.56257 631.1
16.77266 804.7
16.98275 1009.7
17.19283 1246.7
17.40292 1188.2
17.61301 1118.1
17.8231 1102.7
18.03319 988.1
18.24327 1052.8
18.45336 1109.4
18.66345 915.2
18.87354 947.9
19.08363 927.4
19.29371 930.1
19.5038 969.8
19.71389 1085.3
19.92398 1038.5
20.13407 1081.5
20.34415 927.4
20.55424 1107.5
20.76433 1053.6
20.97442 1126.2
21.18451 1055.4
21.39459 1138.1
21.60468 1174.7
21.81477 1176.8
22.02486 1302.3
22.23495 1391.2
22.44503 1662.6
22.65512 2052.2
22.86521 1614.9
23.0753 1437.7
23.28539 1301.8
23.49547 1353.9
23.70556 1325.0
23.91565 1303.8
24.12574 1227.4
24.33583 1199.9
24.54591 1146.4
24.756 1233.2
24.96609 1043.7
25.17618 956.6
25.38627 1093.8
25.59635 1090.4
25.80644 1060.8
26.01653 1111.5
26.22662 1234.5
26.43671 1144.7
26.6468 1026.4
26.85688 970.3
27.06697 1010.4
27.27706 922.1
27.48715 954.4
27.69724 958.6
27.90732 929.2
28.11741 986.6
28.3275 869.7
28.53759 963.2
28.74767 981.8
28.95776 898.6
29.16785 932.0
29.37794 1015.0
29.58803 1221.0
29.79811 1129.2
30.0082 1160.1
30.21829 1117.5
30.42838 1044.6
30.63847 1117.6
30.84855 961.3
31.05864 906.6
31.26873 931.7
31.47882 900.8
31.68891 889.5
31.89899 901.5
32.10908 875.8
32.31917 809.4
32.52926 927.6
32.73935 819.4
32.94944 836.8
33.15952 824.1
33.36961 800.8
33.5797 889.0
33.78979 925.1
33.99987 876.1
34.20996 1168.0
34.42005 1308.4
34.63014 1491.6
34.84023 1458.9
35.05032 1345.6
35.2604 1280.7
35.47049 1176.0
35.68058 1115.9
35.89067 1089.5
36.10075 1067.7
36.31084 997.2
36.52093 1043.3
36.73102 1019.0
36.9411 1022.4
37.1512 933.4
37.36128 912.5
37.57137 802.6
37.78146 821.0
37.99155 876.1
38.20163 748.1
38.41172 853.3
38.62181 791.8
38.8319 764.0
39.04198 810.1
39.25208 701.3
39.46216 733.1
39.67225 720.6
39.88234 679.9
40.09243 636.9
40.30251 635.6
40.5126 698.8
40.72269 671.5
40.93278 625.1
41.14287 560.2
41.35295 546.2
41.56304 617.6
41.77313 576.2
41.98322 596.3
42.19331 604.1
42.40339 557.8
42.61348 550.4
42.82357 578.4
43.03366 612.1
43.24375 571.7
43.45383 500.5
43.66392 592.3
43.87401 624.6
44.0841 561.6
44.29419 610.4
44.50428 629.9
44.71436 578.1
44.92445 695.7
45.13454 652.1
45.34463 634.3
45.55471 594.3
45.7648 663.6
45.97489 708.3
46.18498 762.9
46.39507 764.4
46.60516 760.0
46.81524 756.6
47.02533 714.0
47.23542 712.7
47.44551 655.1
47.65559 647.7
47.86568 607.7
48.07577 554.5
48.28586 571.0
48.49594 556.2
48.70604 496.3
48.91612 565.4
49.12621 492.2
49.3363 511.0
49.54639 453.7
49.75647 460.2
49.96656 508.3
50.17665 421.1
50.38674 507.4
50.59682 492.3
50.80692 461.0
51.017 498.6
51.22709 514.7
51.43718 488.0
51.64727 469.5
51.85735 524.0
52.06744 444.6
52.27753 532.2
52.48762 532.3
52.69771 463.2
52.90779 553.4
53.11788 525.6
53.32797 539.6
53.53806 516.2
53.74815 496.0
53.95823 505.9
54.16832 498.6
54.37841 489.5
54.5885 478.3
54.79859 441.6
55.00867 411.4
55.21876 444.2
55.42885 438.1
55.63894 456.2
55.84903 491.9
56.05911 451.4
56.2692 478.9
56.47929 375.6
56.68938 439.1
56.89947 451.7
57.10955 330.9
57.31964 410.5
57.52973 399.7
57.73982 362.7
57.94991 368.3
58.16 390.2
58.37008 345.1
58.58017 408.0
58.79026 382.1
59.00035 390.3
59.21043 438.5
59.42052 396.9
59.63061 389.8
59.8407 379.5
60.05079 377.2
60.26088 410.2
60.47096 442.1
60.68105 474.1
60.89114 493.3
61.10123 503.7
61.31131 522.1
61.5214 486.8
61.73149 451.0
61.94158 502.0
62.15166 451.6
62.36176 439.1
62.57184 483.7
62.78193 445.3
62.99202 380.6
63.20211 358.9
63.41219 405.2
63.62228 358.7
63.83237 400.4
64.04246 392.7
64.25255 429.0
64.46263 379.8
64.67272 370.1
64.88281 389.2
64.98785 511.6