Folder: PlotingXRD/Files_organized_for_plots/Phill-Misty

Note: README.md
# PlotingXRD
reads xrd cvs files and plots the data

File: A_XRD_005_CentroidWash_Water.xy
5.00773 4779.0
5.21781 4454.0
5.4279 4282.0
5.63798 4155.0
5.84807 4051.0
6.05815 3959.0
6.26824 3920.0
6.47832 3873.0
6.68841 3710.0
6.89849 3631.0
7.10858 3643.0
7.31866 3656.0
7.52874 3581.0
7.73883 3657.0
7.94891 3486.0
8.159 3537.0
8.36908 3541.0
8.57917 3565.0
8.78925 3589.0
8.99934 3534.0
9.20942 3577.0
9.41951 3584.0
9.62959 3674.0
9.83967 3576.0
10.0498 3609.0
10.2598 3540.0
10.4699 3614.0
10.68 3579.0
10.8901 3593.0
11.1002 3575.0
11.3103 3483.0
11.5204 3462.0
11.7304 3565.0
11.9405 3161.0
12.1506 3192.0
12.3607 3058.0
12.5708 3021.0
12.7809 2823.0
12.9909 2803.0
13.201 2619.0
13.4111 2529.0
13.6212 2499.0
13.8313 2395.0
14.0414 2319.0
14.2514 2296.0
14.4615 2228.0
14.6716 2154.0
14.8817 2142.0
15.0918 2099.0
15.3019 2056.0
15.512 2105.0
15.722 2081.0
15.9321 1956.0
16.1422 1951.0
16.3523 1981.0
16.5624 1928.0
16.7725 1957.0
16.9825 1989.0
17.1926 2064.0
17.4027 2034.0
17.6128 2018.0
17.8229 2027.0
18.033 2140.0
18.2431 2186.0
18.4531 2099.0
18.6632 2141.0
18.8733 2180.0
19.0834 2291.0
19.2935 2345.0
19.5036 2251.0
19.7136 2442.0
19.9237 2473.0
20.1338 2537.0
20.3439 2500.0
20.554 2547.0
20.7641 2640.0
20.9742 2713.0
21.1842 2834.0
21.3943 2719.0
21.6044 2813.0
21.8145 2894.0
22.0246 3059.0
22.2347 3042.0
22.4447 3045.0
22.6548 2976.0
22.8649 2960.0
23.075 3040.0
23.2851 2928.0
23.4952 2917.0
23.7053 2837.0
23.9153 2751.0
24.1254 2579.0
24.3355 2550.0
24.5456 2505.0
24.7557 2395.0
24.9658 2285.0
25.1758 2186.0
25.3859 2219.0
25.596 2173.0
25.8061 2079.0
26.0162 2021.0
26.2263 2041.0
26.4364 2028.0
26.6464 2045.0
26.8565 1888.0
27.0666 1935.0
27.2767 1941.0
27.4868 1903.0
27.6969 1931.0
27.9069 1765.0
28.117 1905.0
28.3271 1784.0
28.5372 1840.0
28.7473 1710.0
28.9574 1765.0
29.1675 1713.0
29.3775 1739.0
29.5876 1638.0
29.7977 1681.0
30.0078 1647.0
30.2179 1626.0
30.428 1697.0
30.638 1610.0
30.8481 1580.0
31.0582 1561.0
31.2683 1481.0
31.4784 1512.0
31.6885 1570.0
31.8985 1499.0
32.1086 1488.0
32.3187 1532.0
32.5288 1427.0
32.7389 1458.0
32.949 1435.0
33.1591 1492.0
33.3691 1367.0
33.5792 1474.0
33.7893 1493.0
33.9994 1594.0
34.2095 1770.0
34.4196 2048.0
34.6296 2111.0
34.8397 2204.0
35.0498 2076.0
35.2599 2059.0
35.47 1900.0
35.6801 1831.0
35.8902 1833.0
36.1002 1736.0
36.3103 1641.0
36.5204 1543.0
36.7305 1462.0
36.9406 1362.0
37.1507 1446.0
37.3607 1353.0
37.5708 1334.0
37.7809 1424.0
37.991 1430.0
38.2011 1396.0
38.4112 1430.0
38.6213 1375.0
38.8313 1502.0
39.0414 1390.0
39.2515 1413.0
39.4616 1355.0
39.6717 1341.0
39.8818 1275.0
40.0918 1294.0
40.3019 1243.0
40.512 1211.0
40.7221 1127.0
40.9322 1117.0
41.1423 1149.0
41.3524 1149.0
41.5624 1069.0
41.7725 1096.0
41.9826 1047.0
42.1927 1104.0
42.4028 1025.0
42.6129 1039.0
42.8229 1055.0
43.033 1045.0
43.2431 1006.0
43.4532 1026.0
43.6633 988.0
43.8734 1096.0
44.0835 1010.0
44.2935 1027.0
44.5036 1118.0
44.7137 1117.0
44.9238 1093.0
45.1339 1178.0
45.344 1178.0
45.554 1169.0
45.7641 1160.0
45.9742 1144.0
46.1843 1123.0
46.3944 1157.0
46.6045 1133.0
46.8146 1102.0
47.0246 1121.0
47.2347 1139.0
47.4448 1106.0
47.6549 1009.0
47.865 986.0
48.0751 1011.0
48.2851 984.0
48.4952 1041.0
48.7053 1034.0
48.9154 955.0
49.1255 945.0
49.3356 938.0
49.5456 894.0
49.7557 842.0
49.9658 890.0
50.1759 867.0
50.386 879.0
50.5961 893.0
50.8062 866.0
51.0162 857.0
51.2263 813.0
51.4364 821.0
51.6465 836.0
51.8566 800.0
52.0667 765.0
52.2767 808.0
52.4868 745.0
52.6969 781.0
52.907 754.0
53.1171 749.0
53.3272 716.0
53.5373 735.0
53.7473 718.0
53.9574 708.0
54.1675 753.0
54.3776 720.0
54.5877 727.0
54.7978 712.0
55.0078 729.0
55.2179 689.0
55.428 712.0
55.6381 705.0
55.8482 723.0
56.0583 703.0
56.2684 689.0
56.4784 705.0
56.6885 712.0
56.8986 707.0
57.1087 695.0
57.3188 707.0
57.5289 694.0
57.7389 661.0
57.949 684.0
58.1591 709.0
58.3692 715.0
58.5793 723.0
58.7894 713.0
58.9995 729.0
59.2095 744.0
59.4196 741.0
59.6297 751.0
59.8398 758.0
60.0499 816.0
60.26 862.0
60.47 1040.0
60.6801 1160.0
60.8902 1168.0
61.1003 1227.0
61.3104 1213.0
61.5205 1161.0
61.7306 1107.0
61.9406 1125.0
62.1507 1095.0
62.3608 1057.0
62.5709 894.0
62.781 986.0
62.9911 861.0
63.2011 786.0
63.4112 723.0
63.6213 709.0
63.8314 672.0
64.0415 637.0
64.2516 700.0
64.4617 677.0
64.6717 660.0
64.8818 720.0
64.9869 647.0