Folder: PlotingXRD/Files_organized_for_plots/Water_wash_vs_others

Note: README.md
# PlotingXRD
reads xrd cvs files and plots the data

File: XRD_005_CentroidWash_Water_bgr_removed.xy
5.00773 156.3
5.217818 127.8
5.427906 64.6
5.637994 57.6
5.848082 48.7
6.05817 74.3
6.268258 96.1
6.478346 92.5
6.688434 0.0
6.898522 0.0
7.10861 63.7
7.318698 138.5
7.528786 85.9
7.738874 222.1
7.948962 129.1
8.15905 176.9
8.369138 206.1
8.579226 239.2
8.789314 285.5
8.999402 287.9
9.20949 327.3
9.419578 304.0
9.629666 505.3
9.839754 396.5
10.04984 398.2
10.25993 419.0
10.47002 565.3
10.68011 500.0
10.89019 614.2
11.10028 687.3
11.31037 517.6
11.52046 586.6
11.73055 781.8
11.94063 390.9
12.15072 498.8
12.36081 447.6
12.5709 550.1
12.78099 354.1
12.99107 432.6
13.20116 313.1
13.41125 280.3
13.62134 326.3
13.83143 262.7
14.04151 219.5
14.2516 260.5
14.46169 216.1
14.67178 201.1
14.88187 202.5
15.09195 188.5
15.30204 198.3
15.51213 250.6
15.72222 285.8
15.93231 166.5
16.14239 209.9
16.35248 255.9
16.56257 232.9
16.77266 278.1
16.98275 329.4
17.19283 398.8
17.40292 437.6
17.61301 394.1
17.8231 420.1
18.03319 547.3
18.24327 587.9
18.45336 528.6
18.66345 605.2
18.87354 586.4
19.08363 716.8
19.29371 783.0
19.5038 683.8
19.71389 861.0
19.92398 891.5
20.13407 946.7
20.34415 919.3
20.55424 924.1
20.76433 1092.3
20.97442 1111.1
21.18451 1251.5
21.39459 1166.9
21.60468 1208.2
21.81477 1282.1
22.02486 1441.2
22.23495 1417.9
22.44503 1467.0
22.65512 1438.5
22.86521 1428.7
23.0753 1460.5
23.28539 1373.5
23.49547 1449.3
23.70556 1345.6
23.91565 1339.4
24.12574 1178.5
24.33583 1180.2
24.54591 1173.1
24.756 1098.5
24.96609 1043.5
25.17618 983.8
25.38627 1006.8
25.59635 1016.6
25.80644 985.7
26.01653 881.4
26.22662 926.1
26.43671 980.7
26.64679 957.4
26.85688 838.0
27.06697 904.9
27.27706 953.9
27.48715 892.6
27.69723 928.7
27.90732 807.2
28.11741 954.7
28.3275 837.3
28.53759 925.5
28.74767 749.7
28.95776 854.2
29.16785 804.2
29.37794 843.6
29.58803 691.6
29.79811 836.4
30.0082 780.6
30.21829 815.1
30.42838 878.2
30.63847 760.1
30.84855 781.0
31.05864 748.5
31.26873 704.6
31.47882 742.8
31.68891 786.8
31.89899 713.0
32.10908 701.7
32.31917 789.0
32.52926 702.1
32.73935 724.4
32.94943 716.3
33.15952 788.6
33.36961 656.7
33.5797 733.1
33.78979 770.7
33.99987 842.0
34.20996 938.5
34.42005 1212.3
34.63014 1202.8
34.84023 1262.2
35.05032 1228.5
35.2604 1125.7
35.47049 1053.3
35.68058 1015.7
35.89067 1062.5
36.10075 987.4
36.31084 909.6
36.52093 820.0
36.73102 737.8
36.9411 693.9
37.1512 778.5
37.36128 706.6
37.57137 687.7
37.78146 796.4
37.99155 810.1
38.20163 774.1
38.41172 774.6
38.62181 702.9
38.8319 845.5
39.04198 789.9
39.25208 781.5
39.46216 757.5
39.67225 750.7
39.88234 689.6
40.09243 684.5
40.30251 701.6
40.5126 663.6
40.72269 548.7
40.93278 545.5
41.14286 613.3
41.35295 625.6
41.56304 540.8
41.77313 586.5
41.98322 523.7
42.19331 599.0
42.40339 538.8
42.61348 557.7
42.82357 561.1
43.03366 548.6
43.24375 518.0
43.45383 536.2
43.66392 489.3
43.87401 623.5
44.0841 529.2
44.29419 513.9
44.50427 604.9
44.71436 615.9
44.92445 590.3
45.13454 682.0
45.34463 691.1
45.55471 662.9
45.7648 633.7
45.97489 610.4
46.18498 631.5
46.39507 657.3
46.60515 631.0
46.81524 614.6
47.02533 610.9
47.23542 666.1
47.44551 619.1
47.65559 538.3
47.86568 501.0
48.07577 559.8
48.28586 529.5
48.49594 548.1
48.70604 549.4
48.91612 507.3
49.12621 501.0
49.3363 492.7
49.54639 486.2
49.75647 436.3
49.96656 467.4
50.17665 434.4
50.38674 438.4
50.59682 491.3
50.80692 468.6
51.017 445.6
51.22709 395.9
51.43718 466.9
51.64727 440.4
51.85735 425.2
52.06744 408.8
52.27753 440.8
52.48762 355.4
52.6977 417.3
52.90779 395.5
53.11788 387.2
53.32797 366.3
53.53806 380.1
53.74815 373.7
53.95823 362.2
54.16832 417.4
54.37841 371.8
54.5885 355.0
54.79859 375.8
55.00867 381.6
55.21876 333.2
55.42885 359.0
55.63894 360.2
55.84903 371.5
56.05911 336.8
56.2692 350.1
56.47929 349.3
56.68938 375.1
56.89947 337.7
57.10955 331.2
57.31964 378.6
57.52973 322.9
57.73982 266.6
57.94991 337.3
58.15999 331.4
58.37008 327.0
58.58017 341.2
58.79026 315.1
59.00035 326.1
59.21043 351.3
59.42052 312.0
59.63061 337.6
59.8407 322.4
60.05079 379.0
60.26088 397.5
60.47096 535.2
60.68105 620.8
60.89114 606.2
61.10123 625.3
61.31131 596.6
61.5214 589.3
61.73149 536.4
61.94158 573.2
62.15166 536.9
62.36176 530.9
62.57184 375.1
62.78193 485.9
62.99202 388.5
63.20211 333.6
63.41219 287.0
63.62228 300.7
63.83237 266.5
64.04246 256.4
64.25255 321.6
64.46263 263.7
64.67272 271.6
64.88281 346.2
64.98785 410.4